Folder: DeltaU_Data

Note: README.md
# DeltaU_Data
This repository includes files in support of ML integrated FE modelling of structural walls

File: WSH6_measured.csv
Displacement (mm),Force (kN)
-0.97101,-149.018
4.01972,288.875
7.28259,375.288
9.40124,363.902
7.36365,277.34
4.63151,155.248
0.29608,2.18807
-2.77396,-266.771
-5.74075,-357.672
-8.58467,-395.167
-5.10165,-213.0674
-1.99151,-59.85896
2.56405,188.887
6.20492,306.417
10.40212,399.394
7.34829,270.664
3.27311,97.53967
0.89337,-4.5621
-0.26622,-109.0379
-1.09388,-202.425
-7.32355,-379.739
-8.11452,-323.996
-5.39774,-208.58
-0.9548,-8.78948
-0.36178,115.788
3.56493,224.38
9.7434,379.441
13.32796,472.493
19.58749,529.606
25.78046,557.791
25.61152,484.357
23.02272,424.573
12.48408,238.878
7.89353,108.108
3.24154,-49.36489
0.90787,-131.439
-3.80043,-313.3902
-8.29883,-404.105
-11.81683,-468.229
-18.40316,-534.206
-25.8419,-571.143
-32.15177,-516.955
-15.0524,-276.41
-7.40376,-148.237
-3.40025,-6.26669
0.25598,117.939
4.15197,213.179
13.73069,381.183
21.62422,482.616
25.41271,531.125
21.11312,393.642
14.41928,280.935
9.90552,183.544
5.63153,57.1874
-0.26622,-109.0379
-5.46429,-237.5081
-11.22893,-345.877
-18.18302,-438.519
-26.38799,-542.14
-22.39984,-406.845
-10.6052,-207.947
-5.41736,-83.92776
0.2611,120.164
5.43869,239.733
14.97134,387.71
21.36398,502.68
29.45632,557.345
37.77818,578.5932
37.30292,505.197
31.8446,396.791
24.89563,306.3735
18.54907,211.431
13.4585,129.691
8.9857,50.10251
4.81922,-29.52348
-2.31917,-202.2758
-8.05309,-297.293
-16.91166,-418.641
-24.80519,-520.073
-35.34297,-572.215
-39.23811,-533.902
-33.75932,-416.595
-25.22755,-304.111
-18.24274,-198.117
-10.93626,-85.48358
-5.23306,-3.81828
1.87462,155.582
15.77255,336.418
27.10217,466.369
44.82357,577.738
35.65868,456.427
29.31211,361.484
24.20619,273.069
16.95091,182.689
7.70922,27.99865
4.72195,-71.80348
-22.62425,-371.204
-17.74871,-382.925
-26.54072,-475.345
-33.12193,-539.096
-39.61099,-562.793
-34.709,-429.8353
-27.10643,-321.69
-18.89122,-213.619
-12.21786,-109.813
0.5623,117.902
10.10518,270.329
29.31297,495.037
39.57003,558.343
50.97047,585.895
51.1488,530.226
48.5856,481.568
45.0676,417.444
40.95744,362.296
35.59127,293.9455
29.90855,221.181
23.93486,155.13
18.57381,89.00433
11.67604,20.83937
6.64179,-36.42241
0.87203,-147.016
-13.04126,-334.5271
-24.93744,-444.377
-36.50682,-545.363
-45.17085,-582.151
-51.52679,-547.991
-47.26817,-428.31
-38.43008,-315.8634
-29.91879,-212.2802
-20.79485,-108.771
-12.63596,-25.17833
-3.86442,58.34033
8.53262,252.713
20.43392,364.788
32.60571,461.249
45.33382,533.1582
51.83312,561.3056
47.3296,468.3652
42.82608,375.425
35.58103,289.495
29.59711,218.993
25.46646,154.944
17.94581,82.40292
6.30987,-47.51154
-8.02749,-286.166
-23.33416,-413.409
-33.91291,-483.353
-42.29109,-529.08
-50.83224,-512.461
-39.70144,-335.742
-27.0595,-168.11
-12.01308,-20.80218
-1.95482,89.27087
9.79886,270.366
22.92545,382.293
35.72012,483.13
48.13679,552.851
58.31194,580.552
64.6986,559.744
63.01341,493.172
57.30509,409.281
50.66756,321.052
43.12131,237.384
31.16369,100.831
21.172,19.68645
11.23149,-39.20554
2.16899,-116.011
-8.27238,-259.426
-19.84176,-360.412
-32.64154,-463.475
-52.47648,-561.2312
-61.4161,-584.631
-64.06548,-537.565
-59.52101,-426.823
-48.13508,-272.393
-39.99667,-197.701
-28.06977,-74.49983
-17.20006,-11.26888
-5.38067,65.20207
4.67758,175.275
14.1232,285.423
28.18922,406.138
41.54533,484.649
54.23249,538.755
65.32149,564.12
61.05774,442.214
53.46541,338.519
41.19635,199.7778
31.79682,109.658
21.19247,28.5875
10.31253,-39.09397
1.53587,-124.838
-15.48671,-332.0043
-31.34459,-432.47
-43.75102,-497.74
-53.02256,-532.228
-63.81036,-559.855
-60.80261,-451.152
-41.86019,-208.604
-31.81217,-102.982
-22.75991,-30.62681
-6.93787,54.26171
3.78422,186.513
18.1924,322.769
30.04251,412.591
46.79375,501.819
71.18254,581.215
77.61529,580.4342
77.1605,515.939
72.37626,434.162
67.93417,367.925
60.70448,288.671
50.95255,178.56
43.11534,101.606
25.41953,1.36367
10.55229,-68.05959
-2.00261,-197.862
-18.93815,-367.199
-59.18995,-549.287
-73.34215,-574.279
-78.1409,-529.179
-73.92834,-429.525
-64.78905,-319.341
-53.80159,-204.929
-43.16142,-108.282
-25.46561,-8.03946
-3.40452,125.061
15.4048,309.752
31.8446,396.791
56.32554,516.242
70.20215,554.6236
77.57945,564.857
71.11002,416.509
60.36745,275.356
44.99422,119.185
23.24457,-11.72757
-4.17757,-210.9537
-20.11224,-344.798
-39.96766,-451.456
-52.65993,-507.788
-65.91877,-544.018
-75.75176,-556.179
-77.79362,-511.414
-70.47178,-392.105
-61.3376,-284.146
-50.96791,-171.885
-40.02141,-75.27464
-26.39481,-12.37841
-9.01557,83.45047
5.97966,208.505
26.89226,375.134
56.60115,502.8537
68.93591,536.97
81.86282,562.111
91.34854,556.508
94.29913,507.18
92.90489,433.895
86.5788,347.854
80.56928,266.226
72.40527,180.407
61.14733,81.60951
46.56593,3.24802
32.66373,-46.25944
19.70097,-86.97742
5.45661,-152.025
-8.24678,-248.2997
-23.22665,-366.679
-37.48637,-438.402
-53.90569,-516.54
-72.07591,-556.626
-83.39955,-550.799
-88.45854,-485.634
-89.11641,-372.034
-89.78963,-265.11
-90.81525,-178.176
-90.73334,-142.572